{
  "resourceType": "Bundle",
  "type": "document",
  "entry": [
    {
      "fullUrl": "urn:uuid:comp-manual",
      "resource": {
        "resourceType": "Composition",
        "id": "comp-manual",
        "identifier": {
          "system": "urn:oid:9aed0e91-9a94-45db-af7a-dda1ac28ba15",
          "value": "9aed0e91-9a94-45db-af7a-dda1ac28ba15"
        },
        "status": "final",
        "type": {
          "coding": [
            {
              "system": "http://loinc.org",
              "code": "34133-9",
              "display": "Summarization of Episode Note"
            }
          ]
        },
        "subject": {
          "reference": "Patient/patient-jane-smith"
        },
        "date": "2024-03-01T15:03:34-05:00",
        "author": [
          {
            "display": "Test EHR System Document Generation Engine"
          }
        ],
        "title": "Continuity of Care Document",
        "confidentiality": "N",
        "custodian": {
          "reference": "Organization/org-healthyu"
        },
        "section": [
          {
            "title": "Problems",
            "code": {
              "coding": [
                {
                  "system": "http://loinc.org",
                  "code": "11450-4",
                  "display": "Problems"
                }
              ]
            },
            "entry": [
              {
                "reference": "Condition/condition-low-back-pain"
              },
              {
                "reference": "Condition/condition-dementia"
              }
            ]
          },
          {
            "title": "Medications",
            "code": {
              "coding": [
                {
                  "system": "http://loinc.org",
                  "code": "10160-0",
                  "display": "History of Medication Use"
                }
              ]
            },
            "entry": [
              {
                "reference": "MedicationStatement/med-donepezil"
              }
            ]
          },
          {
            "title": "Allergies",
            "code": {
              "coding": [
                {
                  "system": "http://loinc.org",
                  "code": "48765-2",
                  "display": "Allergies, adverse reactions, alerts"
                }
              ]
            },
            "entry": [
              {
                "reference": "AllergyIntolerance/allergy-strawberry"
              }
            ]
          }
        ]
      }
    },
    {
      "fullUrl": "urn:uuid:patient-jane-smith",
      "resource": {
        "resourceType": "Patient",
        "id": "patient-jane-smith",
        "identifier": [
          {
            "type": {
              "coding": [
                {
                  "system": "http://terminology.hl7.org/CodeSystem/v2-0203",
                  "code": "MR",
                  "display": "Medical Record Number"
                }
              ]
            },
            "system": "urn:oid:2.16.840.1.113883.3.564",
            "value": "test-patient-12345"
          }
        ],
        "name": [
          {
            "use": "usual",
            "family": "Smith",
            "given": ["Jane"]
          }
        ],
        "telecom": [
          {
            "system": "phone",
            "value": "+1-(555) 123-4567",
            "use": "home"
          }
        ],
        "gender": "female",
        "birthDate": "1985-01-01",
        "address": [
          {
            "use": "home",
            "type": "physical",
            "line": ["123 Main Street"],
            "city": "Springfield",
            "state": "CA",
            "postalCode": "62701",
            "country": "USA",
            "period": {
              "start": "2024-01-31"
            }
          }
        ],
        "maritalStatus": {
          "coding": [
            {
              "system": "http://terminology.hl7.org/CodeSystem/v3-MaritalStatus",
              "code": "M",
              "display": "Married"
            }
          ]
        },
        "communication": [
          {
            "language": {
              "coding": [
                {
                  "system": "urn:ietf:bcp:47",
                  "code": "en"
                }
              ]
            }
          }
        ],
        "managingOrganization": {
          "reference": "Organization/org-healthyu"
        },
        "extension": [
          {
            "url": "http://hl7.org/fhir/us/core/StructureDefinition/us-core-race",
            "extension": [
              {
                "url": "ombCategory",
                "valueCoding": {
                  "system": "urn:oid:2.16.840.1.113883.6.238",
                  "code": "2106-3",
                  "display": "White"
                }
              },
              {
                "url": "text",
                "valueString": "White"
              }
            ]
          },
          {
            "url": "http://hl7.org/fhir/us/core/StructureDefinition/us-core-ethnicity",
            "extension": [
              {
                "url": "ombCategory",
                "valueCoding": {
                  "system": "urn:oid:2.16.840.1.113883.6.238",
                  "code": "2186-5",
                  "display": "Not Hispanic or Latino"
                }
              },
              {
                "url": "text",
                "valueString": "Not Hispanic or Latino"
              }
            ]
          }
        ]
      }
    },
    {
      "fullUrl": "urn:uuid:condition-low-back-pain",
      "resource": {
        "resourceType": "Condition",
        "id": "condition-low-back-pain",
        "identifier": [
          {
            "system": "urn:uuid:0b5a8a5d-bddf-4140-a779-5ac22a49a385",
            "value": "0b5a8a5d-bddf-4140-a779-5ac22a49a385"
          }
        ],
        "clinicalStatus": {
          "coding": [
            {
              "system": "http://terminology.hl7.org/CodeSystem/condition-clinical",
              "code": "active"
            }
          ]
        },
        "category": [
          {
            "coding": [
              {
                "system": "http://terminology.hl7.org/CodeSystem/condition-category",
                "code": "problem-list-item",
                "display": "Problem List Item"
              }
            ]
          }
        ],
        "code": {
          "coding": [
            {
              "system": "http://snomed.info/sct",
              "code": "278862001",
              "display": "Acute low back pain"
            },
            {
              "system": "http://hl7.org/fhir/sid/icd-10-cm",
              "code": "M54.50",
              "display": "Low back pain, unspecified"
            },
            {
              "system": "urn:oid:2.16.840.1.113883.3.247.1.1",
              "code": "66945575",
              "display": "Acute midline low back pain without sciatica"
            }
          ],
          "text": "Acute midline low back pain without sciatica"
        },
        "subject": {
          "reference": "Patient/patient-jane-smith"
        },
        "onsetDateTime": "2024-01-22T00:00:00-05:00",
        "recordedDate": "2024-01-22T12:53:28-05:00",
        "recorder": {
          "reference": "Practitioner/practitioner-john-doe"
        }
      }
    },
    {
      "fullUrl": "urn:uuid:condition-dementia",
      "resource": {
        "resourceType": "Condition",
        "id": "condition-dementia",
        "identifier": [
          {
            "system": "urn:uuid:72c5d07f-f33b-4a5d-b8e6-62e06bbd6691",
            "value": "72c5d07f-f33b-4a5d-b8e6-62e06bbd6691"
          }
        ],
        "clinicalStatus": {
          "coding": [
            {
              "system": "http://terminology.hl7.org/CodeSystem/condition-clinical",
              "code": "active"
            }
          ]
        },
        "category": [
          {
            "coding": [
              {
                "system": "http://terminology.hl7.org/CodeSystem/condition-category",
                "code": "problem-list-item",
                "display": "Problem List Item"
              }
            ]
          }
        ],
        "code": {
          "coding": [
            {
              "system": "http://snomed.info/sct",
              "code": "52448006",
              "display": "Dementia"
            },
            {
              "system": "http://hl7.org/fhir/sid/icd-10-cm",
              "code": "F03.B0",
              "display": "Unspecified dementia, moderate, without beh/psych/mood/anx"
            },
            {
              "system": "urn:oid:2.16.840.1.113883.3.247.1.1",
              "code": "1507565033",
              "display": "Moderate dementia without behavioral disturbance, psychotic disturbance, mood disturbance, or anxiety, unspecified dementia type"
            }
          ],
          "text": "Moderate dementia without behavioral disturbance"
        },
        "subject": {
          "reference": "Patient/patient-jane-smith"
        },
        "onsetDateTime": "2024-01-22T00:00:00-05:00",
        "recordedDate": "2024-01-22T12:53:59-05:00",
        "recorder": {
          "reference": "Practitioner/practitioner-john-doe"
        }
      }
    },
    {
      "fullUrl": "urn:uuid:med-donepezil",
      "resource": {
        "resourceType": "MedicationStatement",
        "id": "med-donepezil",
        "identifier": [
          {
            "system": "urn:uuid:3ea421da-102f-4763-8282-0e8a5a7ae690",
            "value": "3ea421da-102f-4763-8282-0e8a5a7ae690"
          }
        ],
        "status": "active",
        "medicationCodeableConcept": {
          "coding": [
            {
              "system": "http://www.nlm.nih.gov/research/umls/rxnorm",
              "code": "997229",
              "display": "donepezil hydrochloride 5 MG Oral Tablet"
            }
          ],
          "text": "donepezil 5 mg tablet"
        },
        "subject": {
          "reference": "Patient/patient-jane-smith"
        },
        "dateAsserted": "2024-01-22T12:16:49-05:00",
        "dosage": [
          {
            "text": "TAKE 1 TABLET BY MOUTH EVERY DAY"
          }
        ]
      }
    },
    {
      "fullUrl": "urn:uuid:allergy-strawberry",
      "resource": {
        "resourceType": "AllergyIntolerance",
        "id": "allergy-strawberry",
        "identifier": [
          {
            "system": "urn:oid:2.16.840.1.113883.3.564",
            "value": "135781"
          }
        ],
        "clinicalStatus": {
          "coding": [
            {
              "system": "http://terminology.hl7.org/CodeSystem/allergyintolerance-clinical",
              "code": "active"
            }
          ]
        },
        "verificationStatus": {
          "coding": [
            {
              "system": "http://terminology.hl7.org/CodeSystem/allergyintolerance-verification",
              "code": "confirmed"
            }
          ]
        },
        "type": "allergy",
        "category": ["food"],
        "code": {
          "coding": [
            {
              "system": "http://www.nlm.nih.gov/research/umls/rxnorm",
              "code": "892484",
              "display": "strawberry allergenic extract"
            }
          ],
          "text": "strawberry allergenic extract"
        },
        "patient": {
          "reference": "Patient/patient-jane-smith"
        },
        "onsetDateTime": "2015-01-01",
        "recordedDate": "2024-02-10"
      }
    },
    {
      "fullUrl": "urn:uuid:practitioner-john-doe",
      "resource": {
        "resourceType": "Practitioner",
        "id": "practitioner-john-doe",
        "identifier": [
          {
            "system": "http://hl7.org/fhir/sid/us-npi",
            "value": "9999999999"
          }
        ],
        "name": [
          {
            "family": "Doe",
            "given": ["John"],
            "suffix": ["MD"]
          }
        ],
        "address": [
          {
            "use": "work",
            "line": ["456 Oak Avenue", "STE 225"],
            "city": "Springfield",
            "state": "CA",
            "postalCode": "62702",
            "country": "US"
          }
        ]
      }
    },
    {
      "fullUrl": "urn:uuid:org-healthyu",
      "resource": {
        "resourceType": "Organization",
        "id": "org-healthyu",
        "identifier": [
          {
            "system": "http://hl7.org/fhir/sid/us-npi",
            "value": "9999999999"
          }
        ],
        "name": "Test Medical Group",
        "telecom": [
          {
            "system": "phone",
            "value": "(555) 987-6543",
            "use": "work"
          }
        ],
        "address": [
          {
            "use": "work",
            "line": ["789 Medical Plaza", "STE 246"],
            "city": "Springfield",
            "state": "CA",
            "postalCode": "62703",
            "country": "USA"
          }
        ]
      }
    }
  ]
}
